Folder: myPaper/figure/Building

File: XRD.csv
0,0
5.15,5.07102e-05
5.35,0.000958063
5.55,0.000191499
5.75,3.14031e-05
5.95,2.05077e-05
6.15,0.000185269
6.35,0.000232616
6.55,0.000743684
6.75,0.000324083
6.95,0.0095778
7.15,0.00027891
7.35,0.00527869
7.55,0.134875
7.75,0.587615
7.95,100
8.15,0.625454
8.35,0.14865
8.55,0.127261
8.75,1.12103
8.95,2.53481
9.15,1.88705
9.35,0.0417032
9.55,0.00391303
9.75,0.0136644
9.95,0.0942019
10.15,0.00865109
10.35,0.00549648
10.55,8.33992e-05
10.75,0.000601583
10.95,0.00527105
11.15,0.00363866
11.35,0.00254906
11.55,0.00279076
11.75,0.00421408
11.95,0.385272
12.15,0.00679311
12.35,0.00224709
12.55,0.207702
12.75,0.00476379
12.95,0.0061831
13.15,0.036881
13.35,0.0173729
13.55,0.014816
13.75,0.0520313
13.95,7.60897
14.15,0.167513
14.35,0.0228466
14.55,0.0476745
14.75,0.355337
14.95,1.49476
15.15,0.0437418
15.35,0.0269896
15.55,3.03871
15.75,0.0771753
15.95,4.97829
16.15,0.0639673
16.35,0.0210259
16.55,0.878176
16.75,0.0105317
16.95,0.00481638
17.15,0.00649037
17.35,0.3181
17.55,0.0290817
17.75,1.03642
17.95,0.0597722
18.15,0.0136774
18.35,0.0296623
18.55,0.0112978
18.75,0.647145
18.95,0.303978
19.15,0.0324014
19.35,0.91425
19.55,0.157849
19.75,0.00877018
19.95,0.186182
20.15,0.0213043
20.35,0.444433
20.55,0.0482759
20.75,0.0862391
20.95,2.4999
21.15,0.0395312
21.35,0.00943465
21.55,0.00332542
21.75,0.00497448
21.95,0.0124417
22.15,0.156279
22.35,0.125774
22.55,0.00698162
22.75,0.038669
22.95,0.16794
23.15,13.3852
23.35,9.63737
23.55,0.22495
23.75,2.04874
23.95,3.60058
24.15,0.226751
24.35,0.332742
24.55,0.485499
24.75,0.0428103
24.95,0.0767078
25.15,0.00576312
25.35,0.01077
25.55,0.026188
25.75,0.0310132
25.95,1.17915
26.15,0.0389482
26.35,0.371992
26.55,0.118619
26.75,4.56049
26.95,0.916265
27.15,0.111327
27.35,0.143359
27.55,0.523943
27.75,0.017257
27.95,0.0386488
28.15,0.573798
28.35,0.184103
28.55,0.201108
28.75,0.0181612
28.95,0.0885394
29.15,0.0467643
29.35,0.931584
29.55,0.0976831
29.75,0.0277648
29.95,1.1817
30.15,0.509866
30.35,0.481644
30.55,0.145724
30.75,0.0290366
30.95,0.00992247
31.15,0.04765
31.35,0.106153
31.55,0.0141874
31.75,0.0445927
31.95,0.0499276
32.15,0.558013
32.35,0.0915815
32.55,0.0924872
32.75,0.0368791
32.95,0.692307
33.15,0.0208192
33.35,0.0277187
33.55,0.0360446
33.75,0.431177
33.95,0.0254537
34.15,0.0559305
34.35,0.107212
34.55,0.849873
34.75,0.541196
34.95,0.892734
35.15,0.247499
35.35,0.101594
35.55,0.0469302
35.75,0.186878
35.95,0.574351
36.15,0.879333
36.35,0.091257
36.55,0.0460125
36.75,0.131754
36.95,0.374595
37.15,0.0624214
37.35,0.21848
37.55,0.230553
37.75,0.228786
37.95,0.0265903
38.15,0.161321
38.35,0.205642
38.55,0.0562972
38.75,0.0798435
38.95,0.0582995
39.15,0.0502065
39.35,0.078822
39.55,0.0495749
39.75,0.0832042
39.95,0.0131742
40.15,0.00951905
40.35,0.0468218
40.55,0.217868
40.75,0.057223
40.95,0.0683647
41.15,0.0451163
41.35,0.257995
41.55,0.0641071
41.75,0.135555
41.95,0.0650392
42.15,0.0174736
42.35,0.166977
42.55,0.21487
42.75,0.248694
42.95,0.181627
43.15,0.041057
43.35,0.0890761
43.55,0.0981021
43.75,0.234547
43.95,0.231342
44.15,0.0173666
44.35,0.0226734
44.55,0.117606
44.75,0.0747763
44.95,0.293919
45.15,0.121919
45.35,0.569657
45.55,1.73202
45.75,0.552251
45.95,0.036416
46.15,0.0748512
46.35,0.16815
46.55,0.183981
46.75,0.129671
46.95,0.0237834
47.15,0.0350766
47.35,0.126412
47.55,0.30097
47.75,0.117707
47.95,0.043268
48.15,0.0451924
48.35,0.016009
48.55,0.14069
48.75,0.207067
48.95,0.170355
49.15,0.307072
49.35,0.0955072
49.55,0.283805
49.75,0.078674
49.95,0.0675374
50,0.0540169